trials.thisRepN,trials.thisTrialN,trials.thisN,trials.thisIndex,fixation.started,key_resp.started,fixation.stopped,tilt,key_resp.keys,key_resp.corr,key_resp.rt,key_resp.duration,participant,session,date,expName,psychopyVersion,frameRate,
0,0,0,0,20.96834499994293,21.963608999969438,21.980247400002554,2,down,1,12.790839200024493,None,212644,001,2023-09-13_12h39.17.901,orientation discrimination,2023.1.3,59.95725047597206,
1,0,1,0,34.78019520000089,35.78041240002494,35.78041240002494,0,up,1,1.7002257999265566,None,212644,001,2023-09-13_12h39.17.901,orientation discrimination,2023.1.3,59.95725047597206,
2,0,2,0,37.4968548999168,38.497010899940506,38.497010899940506,0,up,1,0.8333282000385225,None,212644,001,2023-09-13_12h39.17.901,orientation discrimination,2023.1.3,59.95725047597206,
3,0,3,0,39.34669229993597,40.346922699944116,40.346922699944116,0,up,0,0.5193521999754012,None,212644,001,2023-09-13_12h39.17.901,orientation discrimination,2023.1.3,59.95725047597206,
4,0,4,0,40.896796399960294,41.8970550999511,41.8970550999511,-3,up,0,0.3978307000361383,None,212644,001,2023-09-13_12h39.17.901,orientation discrimination,2023.1.3,59.95725047597206,
5,0,5,0,42.31348489993252,43.313915199949406,43.313915199949406,0,up,1,0.6449068000074476,None,212644,001,2023-09-13_12h39.17.901,orientation discrimination,2023.1.3,59.95725047597206,
6,0,6,0,43.980107599985786,44.980369099997915,44.980369099997915,-2,down,1,0.8974806000478566,None,212644,001,2023-09-13_12h39.17.901,orientation discrimination,2023.1.3,59.95725047597206,
7,0,7,0,45.897000600001775,46.89708319993224,46.89708319993224,-5,up,0,0.8325951000442728,None,212644,001,2023-09-13_12h39.17.901,orientation discrimination,2023.1.3,59.95725047597206,
8,0,8,0,47.746835400001146,48.74666679999791,48.74666679999791,-1,up,0,0.7613965999335051,None,212644,001,2023-09-13_12h39.17.901,orientation discrimination,2023.1.3,59.95725047597206,
9,0,9,0,49.53025069995783,50.53044040000532,50.53044040000532,2,down,1,0.8577690999954939,None,212644,001,2023-09-13_12h39.17.901,orientation discrimination,2023.1.3,59.95725047597206,
10,0,10,0,51.413481099996716,52.4136598999612,52.4136598999612,1,up,0,0.9741802000207826,None,212644,001,2023-09-13_12h39.17.901,orientation discrimination,2023.1.3,59.95725047597206,
11,0,11,0,53.41352860000916,54.41384399996605,54.41384399996605,0,up,1,0.7462905999273062,None,212644,001,2023-09-13_12h39.17.901,orientation discrimination,2023.1.3,59.95725047597206,
12,0,12,0,55.180259999935515,56.180458599934354,56.180458599934354,0,up,1,0.6666889999760315,None,212644,001,2023-09-13_12h39.17.901,orientation discrimination,2023.1.3,59.95725047597206,
13,0,13,0,56.863486999995075,57.86372429993935,57.86372429993935,0,up,1,0.559668599977158,None,212644,001,2023-09-13_12h39.17.901,orientation discrimination,2023.1.3,59.95725047597206,
14,0,14,0,58.446732399985194,59.44696380000096,59.44696380000096,0,up,1,0.5795933000044897,None,212644,001,2023-09-13_12h39.17.901,orientation discrimination,2023.1.3,59.95725047597206,
15,0,15,0,60.04689280001912,61.04689589992631,61.04689589992631,0,up,1,0.5738856999669224,None,212644,001,2023-09-13_12h39.17.901,orientation discrimination,2023.1.3,59.95725047597206,
16,0,16,0,61.64680109999608,62.64690029993653,62.64690029993653,0,up,1,0.3791436000028625,None,212644,001,2023-09-13_12h39.17.901,orientation discrimination,2023.1.3,59.95725047597206,
17,0,17,0,63.04681079997681,64.04707420000341,64.04707420000341,-2,up,0,0.38160270010121167,None,212644,001,2023-09-13_12h39.17.901,orientation discrimination,2023.1.3,59.95725047597206,
18,0,18,0,64.4463918999536,65.44692909996957,65.44692909996957,0,up,1,0.47527729999274015,None,212644,001,2023-09-13_12h39.17.901,orientation discrimination,2023.1.3,59.95725047597206,
19,0,19,0,65.94668799999636,66.94699510000646,66.94699510000646,0,up,1,0.5667581000598148,None,212644,001,2023-09-13_12h39.17.901,orientation discrimination,2023.1.3,59.95725047597206,
20,0,20,0,67.5301472999854,68.53045219997875,68.53045219997875,0,up,0,0.48722360003739595,None,212644,001,2023-09-13_12h39.17.901,orientation discrimination,2023.1.3,59.95725047597206,
21,0,21,0,69.046656099963,70.047097499948,70.047097499948,0,up,1,0.390322900027968,None,212644,001,2023-09-13_12h39.17.901,orientation discrimination,2023.1.3,59.95725047597206,
22,0,22,0,70.46367289999034,71.46366260002833,71.46366260002833,-4,up,0,0.34530439996160567,None,212644,001,2023-09-13_12h39.17.901,orientation discrimination,2023.1.3,59.95725047597206,
23,0,23,0,71.83026920002885,72.83045459992718,72.83045459992718,0,up,1,0.6633048000512645,None,212644,001,2023-09-13_12h39.17.901,orientation discrimination,2023.1.3,59.95725047597206,
24,0,24,0,73.51357369998004,74.51375079993159,74.51375079993159,0,up,1,0.527446800027974,None,212644,001,2023-09-13_12h39.17.901,orientation discrimination,2023.1.3,59.95725047597206,
25,0,25,0,75.06326059997082,76.06361479999032,76.06361479999032,3,up,0,0.3931419000728056,None,212644,001,2023-09-13_12h39.17.901,orientation discrimination,2023.1.3,59.95725047597206,
26,0,26,0,76.47973469994031,77.48031909996644,77.48031909996644,-3,down,1,0.7171542999567464,None,212644,001,2023-09-13_12h39.17.901,orientation discrimination,2023.1.3,59.95725047597206,
27,0,27,0,78.21341820002999,79.21366120001767,79.21366120001767,0,down,0,0.7919165999628603,None,212644,001,2023-09-13_12h39.17.901,orientation discrimination,2023.1.3,59.95725047597206,
28,0,28,0,80.03010079998057,81.03025940002408,81.03025940002408,0,down,0,2.629943900043145,None,212644,001,2023-09-13_12h39.17.901,orientation discrimination,2023.1.3,59.95725047597206,
29,0,29,0,83.68027180002537,84.68056539993268,84.68056539993268,0,down,0,0.7347872999962419,None,212644,001,2023-09-13_12h39.17.901,orientation discrimination,2023.1.3,59.95725047597206,
30,0,30,0,85.44702570000663,86.44689609995112,86.44689609995112,-1,down,1,0.45529189996887,None,212644,001,2023-09-13_12h39.17.901,orientation discrimination,2023.1.3,59.95725047597206,
31,0,31,0,86.93017459998373,87.93016220000573,87.93016220000573,0,down,0,0.5800556999165565,None,212644,001,2023-09-13_12h39.17.901,orientation discrimination,2023.1.3,59.95725047597206,
32,0,32,0,88.52974519995041,89.53043479996268,89.53043479996268,0,up,1,0.661957300035283,None,212644,001,2023-09-13_12h39.17.901,orientation discrimination,2023.1.3,59.95725047597206,
33,0,33,0,90.21344209997915,91.21362329996191,91.21362329996191,-4,down,1,0.6121091999812052,None,212644,001,2023-09-13_12h39.17.901,orientation discrimination,2023.1.3,59.95725047597206,
34,0,34,0,91.84698269993532,92.84690999996383,92.84690999996383,2,down,1,0.6394087000517175,None,212644,001,2023-09-13_12h39.17.901,orientation discrimination,2023.1.3,59.95725047597206,
35,0,35,0,93.51331269997172,94.51376020000316,94.51376020000316,2,down,1,0.8643808000488207,None,212644,001,2023-09-13_12h39.17.901,orientation discrimination,2023.1.3,59.95725047597206,
36,0,36,0,95.39683059998788,96.3969766999362,96.3969766999362,0,up,1,0.8497491999296471,None,212644,001,2023-09-13_12h39.17.901,orientation discrimination,2023.1.3,59.95725047597206,
37,0,37,0,97.26331840001512,98.26355249993503,98.26355249993503,1,up,0,0.7425626999465749,None,212644,001,2023-09-13_12h39.17.901,orientation discrimination,2023.1.3,59.95725047597206,
38,0,38,0,99.03009050001856,100.03034229995683,100.03034229995683,0,up,0,0.8502724999561906,None,212644,001,2023-09-13_12h39.17.901,orientation discrimination,2023.1.3,59.95725047597206,
39,0,39,0,100.89674460003152,101.89727419998962,101.89727419998962,3,down,1,0.6723643000004813,None,212644,001,2023-09-13_12h39.17.901,orientation discrimination,2023.1.3,59.95725047597206,
40,0,40,0,102.59676989994477,103.59721219993662,103.59721219993662,0,up,1,0.8856095999944955,None,212644,001,2023-09-13_12h39.17.901,orientation discrimination,2023.1.3,59.95725047597206,
41,0,41,0,104.51321609993465,105.5137085999595,105.5137085999595,0,up,1,0.6983734999084845,None,212644,001,2023-09-13_12h39.17.901,orientation discrimination,2023.1.3,59.95725047597206,
42,0,42,0,106.23007940000389,107.23031030001584,107.23031030001584,0,up,1,0.39925170002970845,None,212644,001,2023-09-13_12h39.17.901,orientation discrimination,2023.1.3,59.95725047597206,
43,0,43,0,107.6466936999932,108.62988989998121,108.64643349999096,-2,up,0,0.06743199995253235,None,212644,001,2023-09-13_12h39.17.901,orientation discrimination,2023.1.3,59.95725047597206,
44,0,44,0,108.71337180002593,109.7134385999525,109.7134385999525,0,up,0,0.21708979993127286,None,212644,001,2023-09-13_12h39.17.901,orientation discrimination,2023.1.3,59.95725047597206,
45,0,45,0,109.94679840002209,110.94707350002136,110.94707350002136,-5,down,1,0.05521200003568083,None,212644,001,2023-09-13_12h39.17.901,orientation discrimination,2023.1.3,59.95725047597206,
46,0,46,0,111.03034249995835,112.03035249991808,112.03035249991808,4,down,1,0.1002576999599114,None,212644,001,2023-09-13_12h39.17.901,orientation discrimination,2023.1.3,59.95725047597206,
47,0,47,0,112.14677889994346,113.14695929992013,113.14695929992013,0,up,1,0.018258799915201962,None,212644,001,2023-09-13_12h39.17.901,orientation discrimination,2023.1.3,59.95725047597206,
48,0,48,0,113.19682730000932,114.19703629997093,114.19703629997093,4,up,0,0.2291550999507308,None,212644,001,2023-09-13_12h39.17.901,orientation discrimination,2023.1.3,59.95725047597206,
49,0,49,0,114.44698349991813,115.44703699997626,115.44703699997626,0,up,1,0.33234470000024885,None,212644,001,2023-09-13_12h39.17.901,orientation discrimination,2023.1.3,59.95725047597206,
50,0,50,0,115.79674979997799,116.79700219992083,116.79700219992083,0,up,1,0.196924899937585,None,212644,001,2023-09-13_12h39.17.901,orientation discrimination,2023.1.3,59.95725047597206,
51,0,51,0,117.01336709992029,118.01369459996931,118.01369459996931,-4,down,1,0.2422939999960363,None,212644,001,2023-09-13_12h39.17.901,orientation discrimination,2023.1.3,59.95725047597206,
52,0,52,0,118.28013829991687,119.28019720001612,119.28019720001612,-2,up,0,0.13812479993794113,None,212644,001,2023-09-13_12h39.17.901,orientation discrimination,2023.1.3,59.95725047597206,
53,0,53,0,119.44681959995069,120.44700829999056,120.44700829999056,0,up,1,0.02674160001333803,None,212644,001,2023-09-13_12h39.17.901,orientation discrimination,2023.1.3,59.95725047597206,
54,0,54,0,120.49692980002146,121.49698019993957,121.49698019993957,0,up,1,0.4999392000027001,None,212644,001,2023-09-13_12h39.17.901,orientation discrimination,2023.1.3,59.95725047597206,
55,0,55,0,122.01331730000675,123.01371339999605,123.01371339999605,1,up,0,0.11138150002807379,None,212644,001,2023-09-13_12h39.17.901,orientation discrimination,2023.1.3,59.95725047597206,
56,0,56,0,123.14669179997873,124.1470713999588,124.1470713999588,0,up,1,0.04782590002287179,None,212644,001,2023-09-13_12h39.17.901,orientation discrimination,2023.1.3,59.95725047597206,
57,0,57,0,124.21337669994682,125.21343340002932,125.21343340002932,3,up,0,0.7184019000269473,None,212644,001,2023-09-13_12h39.17.901,orientation discrimination,2023.1.3,59.95725047597206,
58,0,58,0,125.96343100001104,126.96372050000355,126.96372050000355,0,up,0,0.19259809993673116,None,212644,001,2023-09-13_12h39.17.901,orientation discrimination,2023.1.3,59.95725047597206,
59,0,59,0,127.1800712000113,128.18040019995533,128.18040019995533,0,up,1,0.18777449999470264,None,212644,001,2023-09-13_12h39.17.901,orientation discrimination,2023.1.3,59.95725047597206,
60,0,60,0,128.4003869999433,129.39707559999079,129.41339200001676,0,up,1,0.004058800055645406,None,212644,001,2023-09-13_12h39.17.901,orientation discrimination,2023.1.3,59.95725047597206,
61,0,61,0,129.43008329998702,130.4133466000203,130.4305580999935,-5,up,0,0.27554210007656366,None,212644,001,2023-09-13_12h39.17.901,orientation discrimination,2023.1.3,59.95725047597206,
62,0,62,0,130.71330419997685,131.71347129996866,131.71347129996866,0,up,1,0.13957789994310588,None,212644,001,2023-09-13_12h39.17.901,orientation discrimination,2023.1.3,59.95725047597206,
63,0,63,0,131.88021219999064,132.88050969992764,132.88050969992764,0,up,1,0.40690930001437664,None,212644,001,2023-09-13_12h39.17.901,orientation discrimination,2023.1.3,59.95725047597206,
64,0,64,0,133.31335359998047,134.31345409993082,134.31345409993082,0,down,0,0.2851772999856621,None,212644,001,2023-09-13_12h39.17.901,orientation discrimination,2023.1.3,59.95725047597206,
65,0,65,0,134.6301228000084,135.63039379997645,135.63039379997645,3,up,0,0.32799440005328506,None,212644,001,2023-09-13_12h39.17.901,orientation discrimination,2023.1.3,59.95725047597206,
66,0,66,0,135.98010619997513,136.98033319995739,136.98033319995739,-5,up,0,0.2699981000041589,None,212644,001,2023-09-13_12h39.17.901,orientation discrimination,2023.1.3,59.95725047597206,
67,0,67,0,137.2803146999795,138.28032549994532,138.28032549994532,0,up,1,0.3423583999974653,None,212644,001,2023-09-13_12h39.17.901,orientation discrimination,2023.1.3,59.95725047597206,
68,0,68,0,138.64677839993965,139.6468157999916,139.6468157999916,0,up,1,0.34561759990174323,None,212644,001,2023-09-13_12h39.17.901,orientation discrimination,2023.1.3,59.95725047597206,
69,0,69,0,140.0134146999335,141.01333029998932,141.01333029998932,4,up,0,0.3275194000452757,None,212644,001,2023-09-13_12h39.17.901,orientation discrimination,2023.1.3,59.95725047597206,
70,0,70,0,141.3632571999915,142.36354629998095,142.36354629998095,3,down,1,0.5619686999125406,None,212644,001,2023-09-13_12h39.17.901,orientation discrimination,2023.1.3,59.95725047597206,
71,0,71,0,142.94695339992177,143.94691779999994,143.94691779999994,0,up,0,0.6910429000854492,None,212644,001,2023-09-13_12h39.17.901,orientation discrimination,2023.1.3,59.95725047597206,
72,0,72,0,144.66331239999272,145.66358819999732,145.66358819999732,3,down,1,0.7413980000419542,None,212644,001,2023-09-13_12h39.17.901,orientation discrimination,2023.1.3,59.95725047597206,
73,0,73,0,146.43026189994998,147.43038349994458,147.43038349994458,1,up,0,0.5633367999689654,None,212644,001,2023-09-13_12h39.17.901,orientation discrimination,2023.1.3,59.95725047597206,
74,0,74,0,148.01317139994353,149.0137504999293,149.0137504999293,-2,down,1,0.48332050000317395,None,212644,001,2023-09-13_12h39.17.901,orientation discrimination,2023.1.3,59.95725047597206,
75,0,75,0,149.51327260001563,150.51357970002573,150.51357970002573,0,up,1,0.2930739000439644,None,212644,001,2023-09-13_12h39.17.901,orientation discrimination,2023.1.3,59.95725047597206,
76,0,76,0,150.83014570001978,151.83011709991843,151.83011709991843,0,up,1,0.4185808999463916,None,212644,001,2023-09-13_12h39.17.901,orientation discrimination,2023.1.3,59.95725047597206,
77,0,77,0,152.28003309993073,153.28042760002427,153.28042760002427,0,up,1,0.2970711999805644,None,212644,001,2023-09-13_12h39.17.901,orientation discrimination,2023.1.3,59.95725047597206,
78,0,78,0,153.59681499993894,154.59703199996147,154.59703199996147,4,up,0,0.3981292999815196,None,212644,001,2023-09-13_12h39.17.901,orientation discrimination,2023.1.3,59.95725047597206,
79,0,79,0,155.01346599997487,156.01352549996227,156.01352549996227,0,up,1,0.6308427000185475,None,212644,001,2023-09-13_12h39.17.901,orientation discrimination,2023.1.3,59.95725047597206,
80,0,80,0,156.66335159994196,157.6638482999988,157.6638482999988,0,up,0,0.6785617000423372,None,212644,001,2023-09-13_12h39.17.901,orientation discrimination,2023.1.3,59.95725047597206,
81,0,81,0,158.36338130000513,159.36353360000066,159.36353360000066,0,up,1,0.3162691000616178,None,212644,001,2023-09-13_12h39.17.901,orientation discrimination,2023.1.3,59.95725047597206,
82,0,82,0,159.69678789994214,160.69696869992185,160.69696869992185,0,up,1,0.37568820000160486,None,212644,001,2023-09-13_12h39.17.901,orientation discrimination,2023.1.3,59.95725047597206,
83,0,83,0,161.0967602999881,162.09689489996526,162.09689489996526,0,up,1,0.44084990001283586,None,212644,001,2023-09-13_12h39.17.901,orientation discrimination,2023.1.3,59.95725047597206,
84,0,84,0,162.56325549993198,163.56355009996332,163.56355009996332,0,up,1,0.2499509999761358,None,212644,001,2023-09-13_12h39.17.901,orientation discrimination,2023.1.3,59.95725047597206,
85,0,85,0,163.8299630000256,164.83008320000954,164.83008320000954,-2,up,0,0.2846919000148773,None,212644,001,2023-09-13_12h39.17.901,orientation discrimination,2023.1.3,59.95725047597206,
86,0,86,0,165.14681830001064,166.14700839994475,166.14700839994475,-1,up,0,0.48048150003887713,None,212644,001,2023-09-13_12h39.17.901,orientation discrimination,2023.1.3,59.95725047597206,
87,0,87,0,166.64673989999574,167.6470356999198,167.6470356999198,0,up,1,0.3503654000815004,None,212644,001,2023-09-13_12h39.17.901,orientation discrimination,2023.1.3,59.95725047597206,
88,0,88,0,168.0299731999403,169.03048109996598,169.03048109996598,0,up,1,0.036326800007373095,None,212644,001,2023-09-13_12h39.17.901,orientation discrimination,2023.1.3,59.95725047597206,
89,0,89,0,169.09693609992974,170.09718479996081,170.09718479996081,0,up,1,0.5503594999900088,None,212644,001,2023-09-13_12h39.17.901,orientation discrimination,2023.1.3,59.95725047597206,
90,0,90,0,170.68008299998473,171.6802752999356,171.6802752999356,2,up,0,0.4321973000187427,None,212644,001,2023-09-13_12h39.17.901,orientation discrimination,2023.1.3,59.95725047597206,
91,0,91,0,172.1300049999263,173.13049989996944,173.13049989996944,0,up,1,0.00469069997780025,None,212644,001,2023-09-13_12h39.17.901,orientation discrimination,2023.1.3,59.95725047597206,
92,0,92,0,173.1635012999177,174.16356379992794,174.16356379992794,1,up,0,0.22072379989549518,None,212644,001,2023-09-13_12h39.17.901,orientation discrimination,2023.1.3,59.95725047597206,
93,0,93,0,174.41330639994703,175.41351879993454,175.41351879993454,0,up,1,1.0322838999563828,None,212644,001,2023-09-13_12h39.17.901,orientation discrimination,2023.1.3,59.95725047597206,
94,0,94,0,176.4637619999703,177.46398979995865,177.46398979995865,-3,up,0,0.18479850003495812,None,212644,001,2023-09-13_12h39.17.901,orientation discrimination,2023.1.3,59.95725047597206,
95,0,95,0,177.68026769999415,178.68047719995957,178.68047719995957,-5,up,0,0.43309169996064156,None,212644,001,2023-09-13_12h39.17.901,orientation discrimination,2023.1.3,59.95725047597206,
96,0,96,0,179.1299941999605,180.1303783999756,180.1303783999756,0,up,1,1.4578237000387162,None,212644,001,2023-09-13_12h39.17.901,orientation discrimination,2023.1.3,59.95725047597206,
97,0,97,0,181.6132919000229,182.6140030999668,182.6140030999668,3,down,1,0.026048299972899258,None,212644,001,2023-09-13_12h39.17.901,orientation discrimination,2023.1.3,59.95725047597206,
98,0,98,0,182.66316499991808,183.6634285999462,183.6634285999462,0,up,1,0.08752329996787012,None,212644,001,2023-09-13_12h39.17.901,orientation discrimination,2023.1.3,59.95725047597206,
99,0,99,0,183.77996860002168,184.7802396999905,184.7802396999905,-5,up,0,0.03570789995137602,None,212644,001,2023-09-13_12h39.17.901,orientation discrimination,2023.1.3,59.95725047597206,
100,0,100,0,184.8467260999605,185.84697690000758,185.84697690000758,-5,up,0,0.33286550000775605,None,212644,001,2023-09-13_12h39.17.901,orientation discrimination,2023.1.3,59.95725047597206,
101,0,101,0,186.19670430000406,187.1969558999408,187.1969558999408,0,down,0,0.2672048000385985,None,212644,001,2023-09-13_12h39.17.901,orientation discrimination,2023.1.3,59.95725047597206,
102,0,102,0,187.49684309994336,188.49704759998713,188.49704759998713,-4,up,0,0.45675520005170256,None,212644,001,2023-09-13_12h39.17.901,orientation discrimination,2023.1.3,59.95725047597206,
103,0,103,0,188.97970999998506,189.9801346999593,189.9801346999593,-4,up,0,0.14418569998815656,None,212644,001,2023-09-13_12h39.17.901,orientation discrimination,2023.1.3,59.95725047597206,
104,0,104,0,190.1466400999343,191.14694280002732,191.14694280002732,1,up,0,0.7499356999760494,None,212644,001,2023-09-13_12h39.17.901,orientation discrimination,2023.1.3,59.95725047597206,
105,0,105,0,191.91337079997174,192.91360590001568,192.91360590001568,-4,down,1,0.8133534000953659,None,212644,001,2023-09-13_12h39.17.901,orientation discrimination,2023.1.3,59.95725047597206,
106,0,106,0,193.74689019995276,194.74696239992045,194.74696239992045,0,down,0,0.47965970006771386,None,212644,001,2023-09-13_12h39.17.901,orientation discrimination,2023.1.3,59.95725047597206,
107,0,107,0,195.2466649999842,196.24691629991867,196.24691629991867,-3,down,1,0.6054320998955518,None,212644,001,2023-09-13_12h39.17.901,orientation discrimination,2023.1.3,59.95725047597206,
108,0,108,0,196.87964790000115,197.88014060002752,197.88014060002752,-2,up,0,0.23926119995303452,None,212644,001,2023-09-13_12h39.17.901,orientation discrimination,2023.1.3,59.95725047597206,
109,0,109,0,198.14665889996104,199.14683119999245,199.14683119999245,-4,down,1,0.3147302999859676,None,212644,001,2023-09-13_12h39.17.901,orientation discrimination,2023.1.3,59.95725047597206,
110,0,110,0,199.47999309992883,200.48029789992142,200.48029789992142,0,down,0,0.24307840003166348,None,212644,001,2023-09-13_12h39.17.901,orientation discrimination,2023.1.3,59.95725047597206,
111,0,111,0,200.7468447999563,201.74690289993305,201.74690289993305,-2,up,0,0.2507754999678582,None,212644,001,2023-09-13_12h39.17.901,orientation discrimination,2023.1.3,59.95725047597206,
112,0,112,0,202.03016249998473,203.03027749992907,203.03027749992907,0,up,1,0.17704700003378093,None,212644,001,2023-09-13_12h39.17.901,orientation discrimination,2023.1.3,59.95725047597206,
113,0,113,0,203.22999149991665,204.23014240001794,204.23014240001794,-4,up,0,0.20014369999989867,None,212644,001,2023-09-13_12h39.17.901,orientation discrimination,2023.1.3,59.95725047597206,
114,0,114,0,204.44667229999322,205.4470241999952,205.4470241999952,-4,up,0,0.10305870010051876,None,212644,001,2023-09-13_12h39.17.901,orientation discrimination,2023.1.3,59.95725047597206,
115,0,115,0,205.58013569994364,206.58031779993325,206.58031779993325,0,down,1,27.076660000020638,None,212644,001,2023-09-13_12h39.17.901,orientation discrimination,2023.1.3,59.95725047597206,
116,0,116,0,233.68021150003187,234.68026960000861,234.68026960000861,0,down,0,0.6003885000245646,None,212644,001,2023-09-13_12h39.17.901,orientation discrimination,2023.1.3,59.95725047597206,
117,0,117,0,235.31350789999124,236.31359379994683,236.31359379994683,0,down,0,0.14561110001523048,None,212644,001,2023-09-13_12h39.17.901,orientation discrimination,2023.1.3,59.95725047597206,
118,0,118,0,236.48001920001116,237.47998169995844,237.47998169995844,0,up,1,0.006236599991098046,None,212644,001,2023-09-13_12h39.17.901,orientation discrimination,2023.1.3,59.95725047597206,
119,0,119,0,237.51325059996452,238.51343289995566,238.51343289995566,0,up,1,0.050264300080016255,None,212644,001,2023-09-13_12h39.17.901,orientation discrimination,2023.1.3,59.95725047597206,
120,0,120,0,238.59669189993292,239.59705410001334,239.59705410001334,0,up,1,0.39338620007038116,None,212644,001,2023-09-13_12h39.17.901,orientation discrimination,2023.1.3,59.95725047597206,
121,0,121,0,240.01315090002026,241.01354750001337,241.01354750001337,-1,up,0,0.331495999940671,None,212644,001,2023-09-13_12h39.17.901,orientation discrimination,2023.1.3,59.95725047597206,
122,0,122,0,241.3632793999277,242.3636770999292,242.3636770999292,0,up,1,0.0046054000267758965,None,212644,001,2023-09-13_12h39.17.901,orientation discrimination,2023.1.3,59.95725047597206,
123,0,123,0,242.3966813000152,243.39701149996836,243.39701149996836,0,up,1,0.01468440005555749,None,212644,001,2023-09-13_12h39.17.901,orientation discrimination,2023.1.3,59.95725047597206,
124,0,124,0,243.42991690000053,244.4301796000218,244.4301796000218,1,up,0,0.008655100013129413,None,212644,001,2023-09-13_12h39.17.901,orientation discrimination,2023.1.3,59.95725047597206,
125,0,125,0,244.463261900004,245.4634675999405,245.4634675999405,0,up,1,0.5002527999458835,None,212644,001,2023-09-13_12h39.17.901,orientation discrimination,2023.1.3,59.95725047597206,
126,0,126,0,245.9798940999899,246.9802557999501,246.9802557999501,0,up,1,0.2530995999695733,None,212644,001,2023-09-13_12h39.17.901,orientation discrimination,2023.1.3,59.95725047597206,
127,0,127,0,247.26322029996663,248.2635406999616,248.2635406999616,0,up,1,0.0462291999720037,None,212644,001,2023-09-13_12h39.17.901,orientation discrimination,2023.1.3,59.95725047597206,
128,0,128,0,248.3298876999179,249.32986199995503,249.32986199995503,0,up,1,0.036114800022915006,None,212644,001,2023-09-13_12h39.17.901,orientation discrimination,2023.1.3,59.95725047597206,
129,0,129,0,249.39663500001188,250.39699779998045,250.39699779998045,-5,up,0,0.027068399940617383,None,212644,001,2023-09-13_12h39.17.901,orientation discrimination,2023.1.3,59.95725047597206,
130,0,130,0,250.44657539995387,251.44680449995212,251.44680449995212,0,up,1,0.4815645000198856,None,212644,001,2023-09-13_12h39.17.901,orientation discrimination,2023.1.3,59.95725047597206,
131,0,131,0,251.9468963999534,252.94692429993302,252.94692429993302,0,up,1,0.10051430005114526,None,212644,001,2023-09-13_12h39.17.901,orientation discrimination,2023.1.3,59.95725047597206,
132,0,132,0,253.08005849993788,254.08010859997012,254.08010859997012,0,up,1,1.2159558999119326,None,212644,001,2023-09-13_12h39.17.901,orientation discrimination,2023.1.3,59.95725047597206,
133,0,133,0,255.31326059997082,256.31333789997734,256.31333789997734,0,up,1,0.6585663999430835,None,212644,001,2023-09-13_12h39.17.901,orientation discrimination,2023.1.3,59.95725047597206,
134,0,134,0,256.9967470000265,257.9968737999443,257.9968737999443,0,up,1,0.34381089999806136,None,212644,001,2023-09-13_12h39.17.901,orientation discrimination,2023.1.3,59.95725047597206,
135,0,135,0,258.3632061999524,259.3634011999238,259.3634011999238,0,up,1,1.358332599978894,None,212644,001,2023-09-13_12h39.17.901,orientation discrimination,2023.1.3,59.95725047597206,
136,0,136,0,260.74656300002243,261.74673010001425,261.74673010001425,0,up,1,3.451276500010863,None,212644,001,2023-09-13_12h39.17.901,orientation discrimination,2023.1.3,59.95725047597206,
137,0,137,0,265.2301817999687,266.2301578000188,266.2301578000188,0,up,1,0.0990252000046894,None,212644,001,2023-09-13_12h39.17.901,orientation discrimination,2023.1.3,59.95725047597206,
138,0,138,0,266.3467397999484,267.3468255000189,267.3468255000189,4,down,1,0.03728220006451011,None,212644,001,2023-09-13_12h39.17.901,orientation discrimination,2023.1.3,59.95725047597206,
139,0,139,0,267.4133203999372,268.4133424999891,268.4133424999891,0,down,0,0.07321509998291731,None,212644,001,2023-09-13_12h39.17.901,orientation discrimination,2023.1.3,59.95725047597206,
140,0,140,0,268.51328369998373,269.513556699967,269.513556699967,-2,down,1,0.26011750008910894,None,212644,001,2023-09-13_12h39.17.901,orientation discrimination,2023.1.3,59.95725047597206,
141,0,141,0,269.7966519999318,270.79681540001184,270.79681540001184,-1,up,0,0.11402340000495315,None,212644,001,2023-09-13_12h39.17.901,orientation discrimination,2023.1.3,59.95725047597206,
142,0,142,0,270.93000269995537,271.9303075999487,271.9303075999487,0,up,1,0.21503259998280555,None,212644,001,2023-09-13_12h39.17.901,orientation discrimination,2023.1.3,59.95725047597206,
143,0,143,0,272.16341299994383,273.16352419997565,273.16352419997565,0,down,0,0.0817229999229312,None,212644,001,2023-09-13_12h39.17.901,orientation discrimination,2023.1.3,59.95725047597206,
144,0,144,0,273.2633703999454,274.2634325999534,274.2634325999534,4,down,1,0.06357080000452697,None,212644,001,2023-09-13_12h39.17.901,orientation discrimination,2023.1.3,59.95725047597206,
145,0,145,0,274.3465553999413,275.34688510000706,275.34688510000706,0,up,1,0.07016140001360327,None,212644,001,2023-09-13_12h39.17.901,orientation discrimination,2023.1.3,59.95725047597206,
146,0,146,0,275.4467807000037,276.4466044999426,276.4466044999426,-1,down,1,0.026003999984823167,None,212644,001,2023-09-13_12h39.17.901,orientation discrimination,2023.1.3,59.95725047597206,
147,0,147,0,276.4968594999518,277.4966960999882,277.4966960999882,0,up,1,0.04288349999114871,None,212644,001,2023-09-13_12h39.17.901,orientation discrimination,2023.1.3,59.95725047597206,
148,0,148,0,277.56304289994296,278.5634756999789,278.5634756999789,0,up,1,0.5821447999915108,None,212644,001,2023-09-13_12h39.17.901,orientation discrimination,2023.1.3,59.95725047597206,
149,0,149,0,279.16319510003086,280.1634932999732,280.1634932999732,2,up,0,0.16813380003441125,None,212644,001,2023-09-13_12h39.17.901,orientation discrimination,2023.1.3,59.95725047597206,
150,0,150,0,280.36349070002325,281.36340819997713,281.36340819997713,0,up,1,0.17464480001945049,None,212644,001,2023-09-13_12h39.17.901,orientation discrimination,2023.1.3,59.95725047597206,
151,0,151,0,281.5631682999665,282.5633837999776,282.5633837999776,-2,up,0,0.2610403998987749,None,212644,001,2023-09-13_12h39.17.901,orientation discrimination,2023.1.3,59.95725047597206,
152,0,152,0,282.84657069994137,283.84658809995744,283.84658809995744,0,up,1,0.12565159995574504,None,212644,001,2023-09-13_12h39.17.901,orientation discrimination,2023.1.3,59.95725047597206,
153,0,153,0,283.9967823999468,284.9969678999623,284.9969678999623,0,down,0,0.015400299918837845,None,212644,001,2023-09-13_12h39.17.901,orientation discrimination,2023.1.3,59.95725047597206,
154,0,154,0,285.0299628999783,286.0301227000309,286.0301227000309,0,up,1,0.019873099983669817,None,212644,001,2023-09-13_12h39.17.901,orientation discrimination,2023.1.3,59.95725047597206,
155,0,155,0,286.08326059998944,287.0801789999241,287.0967374999309,0,down,0,0.015631900052540004,None,212644,001,2023-09-13_12h39.17.901,orientation discrimination,2023.1.3,59.95725047597206,
156,0,156,0,287.11337009991985,288.11333309998736,288.11333309998736,2,up,0,0.055439600022509694,None,212644,001,2023-09-13_12h39.17.901,orientation discrimination,2023.1.3,59.95725047597206,
157,0,157,0,288.19661560002714,289.19675120001193,289.19675120001193,0,up,1,0.26031919999513775,None,212644,001,2023-09-13_12h39.17.901,orientation discrimination,2023.1.3,59.95725047597206,
158,0,158,0,289.48009680001996,290.4801072999835,290.4801072999835,-3,up,0,0.07790869998279959,None,212644,001,2023-09-13_12h39.17.901,orientation discrimination,2023.1.3,59.95725047597206,
159,0,159,0,290.5799159000162,291.58022749994416,291.58022749994416,-5,up,0,0.10053339996375144,None,212644,001,2023-09-13_12h39.17.901,orientation discrimination,2023.1.3,59.95725047597206,
160,0,160,0,291.69653539999854,292.6967747999588,292.6967747999588,0,down,0,0.22189270006492734,None,212644,001,2023-09-13_12h39.17.901,orientation discrimination,2023.1.3,59.95725047597206,
161,0,161,0,292.9466771000298,293.9467996000312,293.9467996000312,2,down,1,0.07189679995644838,None,212644,001,2023-09-13_12h39.17.901,orientation discrimination,2023.1.3,59.95725047597206,
162,0,162,0,294.0465887999162,295.05064659996424,295.05064659996424,0,down,0,0.16341249994002283,None,212644,001,2023-09-13_12h39.17.901,orientation discrimination,2023.1.3,59.95725047597206,
163,0,163,0,295.24654790002387,296.2467811999377,296.2467811999377,0,up,1,0.020655900007113814,None,212644,001,2023-09-13_12h39.17.901,orientation discrimination,2023.1.3,59.95725047597206,
164,0,164,0,296.29686270002276,297.2967360999901,297.2967360999901,0,down,0,0.021265999996103346,None,212644,001,2023-09-13_12h39.17.901,orientation discrimination,2023.1.3,59.95725047597206,
165,0,165,0,297.3468347999733,298.34700800001156,298.34700800001156,1,up,0,0.12278010009322315,None,212644,001,2023-09-13_12h39.17.901,orientation discrimination,2023.1.3,59.95725047597206,
166,0,166,0,298.4965888999868,299.4969465000322,299.4969465000322,4,up,0,0.5021428000181913,None,212644,001,2023-09-13_12h39.17.901,orientation discrimination,2023.1.3,59.95725047597206,
167,0,167,0,300.0298599000089,301.03021210001316,301.03021210001316,-1,up,0,0.1250207000412047,None,212644,001,2023-09-13_12h39.17.901,orientation discrimination,2023.1.3,59.95725047597206,
168,0,168,0,301.17992689996026,302.1799234999344,302.1799234999344,2,up,0,0.14557529997546226,None,212644,001,2023-09-13_12h39.17.901,orientation discrimination,2023.1.3,59.95725047597206,
169,0,169,0,302.34671069995966,303.3466846999945,303.3466846999945,0,down,1,0.20529489999171346,None,212644,001,2023-09-13_12h39.17.901,orientation discrimination,2023.1.3,59.95725047597206,
170,0,170,0,303.5801857999759,304.5803349999478,304.5803349999478,1,up,0,0.16681089997291565,None,212644,001,2023-09-13_12h39.17.901,orientation discrimination,2023.1.3,59.95725047597206,
171,0,171,0,304.76318739994895,305.7635461000027,305.7635461000027,4,down,1,0.18432839994784445,None,212644,001,2023-09-13_12h39.17.901,orientation discrimination,2023.1.3,59.95725047597206,
172,0,172,0,305.97999110003,306.9801752999192,306.9801752999192,0,up,1,0.17590110003948212,None,212644,001,2023-09-13_12h39.17.901,orientation discrimination,2023.1.3,59.95725047597206,
173,0,173,0,307.1799430999672,308.18024130002595,308.18024130002595,1,down,1,0.18870150006841868,None,212644,001,2023-09-13_12h39.17.901,orientation discrimination,2023.1.3,59.95725047597206,
174,0,174,0,308.3966376000317,309.39681930001825,309.39681930001825,3,up,0,0.17868820007424802,None,212644,001,2023-09-13_12h39.17.901,orientation discrimination,2023.1.3,59.95725047597206,
175,0,175,0,309.5967252999544,310.5968670999864,310.5968670999864,2,up,0,0.66654759994708,None,212644,001,2023-09-13_12h39.17.901,orientation discrimination,2023.1.3,59.95725047597206,
176,0,176,0,311.27986020001117,312.2801265999442,312.2801265999442,-4,up,0,0.16479830001480877,None,212644,001,2023-09-13_12h39.17.901,orientation discrimination,2023.1.3,59.95725047597206,
177,0,177,0,312.46300170000177,313.4633627999574,313.4633627999574,0,up,1,0.3770331999985501,None,212644,001,2023-09-13_12h39.17.901,orientation discrimination,2023.1.3,59.95725047597206,
178,0,178,0,313.8629019999644,314.86352789995726,314.86352789995726,0,up,0,0.2194596000481397,None,212644,001,2023-09-13_12h39.17.901,orientation discrimination,2023.1.3,59.95725047597206,
179,0,179,0,315.1133432999486,316.11329459992703,316.11329459992703,-3,up,0,0.2325278000207618,None,212644,001,2023-09-13_12h39.17.901,orientation discrimination,2023.1.3,59.95725047597206,
180,0,180,0,316.36309360002633,317.3631712999195,317.3631712999195,3,down,1,0.1913634999655187,None,212644,001,2023-09-13_12h39.17.901,orientation discrimination,2023.1.3,59.95725047597206,
181,0,181,0,317.58007849997375,318.5801178999245,318.5801178999245,2,down,1,0.21436440001707524,None,212644,001,2023-09-13_12h39.17.901,orientation discrimination,2023.1.3,59.95725047597206,
182,0,182,0,318.81313499994576,319.8132921999786,319.8132921999786,-2,up,0,0.17201360000763088,None,212644,001,2023-09-13_12h39.17.901,orientation discrimination,2023.1.3,59.95725047597206,
183,0,183,0,320.0133422999643,321.01351059996523,321.01351059996523,4,down,1,0.14975630003027618,None,212644,001,2023-09-13_12h39.17.901,orientation discrimination,2023.1.3,59.95725047597206,
184,0,184,0,321.17996809992474,322.18079489993397,322.18079489993397,2,down,1,0.2018102000001818,None,212644,001,2023-09-13_12h39.17.901,orientation discrimination,2023.1.3,59.95725047597206,
185,0,185,0,322.4132947999751,323.41341809998266,323.41341809998266,2,down,1,0.23031930008437485,None,212644,001,2023-09-13_12h39.17.901,orientation discrimination,2023.1.3,59.95725047597206,
186,0,186,0,323.66312369995285,324.66334620001726,324.66334620001726,0,down,0,0.1073349000653252,None,212644,001,2023-09-13_12h39.17.901,orientation discrimination,2023.1.3,59.95725047597206,
187,0,187,0,324.79668679996394,325.7968050999334,325.7968050999334,0,up,1,0.13815209991298616,None,212644,001,2023-09-13_12h39.17.901,orientation discrimination,2023.1.3,59.95725047597206,
188,0,188,0,325.96299659996293,326.96348059992306,326.96348059992306,0,up,1,0.1784165999852121,None,212644,001,2023-09-13_12h39.17.901,orientation discrimination,2023.1.3,59.95725047597206,
189,0,189,0,327.16299510002136,328.1633335999213,328.1633335999213,0,up,1,0.02051719999872148,None,212644,001,2023-09-13_12h39.17.901,orientation discrimination,2023.1.3,59.95725047597206,
190,0,190,0,328.2133128999267,329.213334799977,329.213334799977,-1,up,0,0.10459719994105399,None,212644,001,2023-09-13_12h39.17.901,orientation discrimination,2023.1.3,59.95725047597206,
191,0,191,0,329.34660079993773,330.3467889999738,330.3467889999738,0,down,0,0.12572839995846152,None,212644,001,2023-09-13_12h39.17.901,orientation discrimination,2023.1.3,59.95725047597206,
192,0,192,0,330.4967332999222,331.4967992999591,331.4967992999591,0,down,1,0.01594369998201728,None,212644,001,2023-09-13_12h39.17.901,orientation discrimination,2023.1.3,59.95725047597206,
193,0,193,0,331.5299835000187,332.5299202000024,332.5299202000024,0,up,1,0.15465869999025017,None,212644,001,2023-09-13_12h39.17.901,orientation discrimination,2023.1.3,59.95725047597206,
194,0,194,0,332.71304159995634,333.712970499997,333.712970499997,0,down,0,0.2357041999930516,None,212644,001,2023-09-13_12h39.17.901,orientation discrimination,2023.1.3,59.95725047597206,
195,0,195,0,333.9798624999821,334.97998659999575,334.97998659999575,0,up,1,0.1577456999802962,None,212644,001,2023-09-13_12h39.17.901,orientation discrimination,2023.1.3,59.95725047597206,
196,0,196,0,335.1630583999213,336.16368459991645,336.16368459991645,0,down,0,0.13538620003964752,None,212644,001,2023-09-13_12h39.17.901,orientation discrimination,2023.1.3,59.95725047597206,
197,0,197,0,336.3297986999387,337.33018229994923,337.33018229994923,0,down,0,0.21176680002827197,None,212644,001,2023-09-13_12h39.17.901,orientation discrimination,2023.1.3,59.95725047597206,
198,0,198,0,337.56301969999913,338.56325969996396,338.56325969996396,-4,up,0,0.019488499965518713,None,212644,001,2023-09-13_12h39.17.901,orientation discrimination,2023.1.3,59.95725047597206,
199,0,199,0,338.6129965999862,339.61330440000165,339.61330440000165,0,down,0,0.4035513000562787,None,212644,001,2023-09-13_12h39.17.901,orientation discrimination,2023.1.3,59.95725047597206,
200,0,200,0,340.0465847000014,341.046675199992,341.046675199992,0,down,0,0.15690729999914765,None,212644,001,2023-09-13_12h39.17.901,orientation discrimination,2023.1.3,59.95725047597206,
201,0,201,0,341.2324908999726,342.22999429993797,342.24678279994987,-3,up,0,0.0681356000714004,None,212644,001,2023-09-13_12h39.17.901,orientation discrimination,2023.1.3,59.95725047597206,
202,0,202,0,342.33011270000134,343.3300517000025,343.3300517000025,0,up,1,0.060545200016349554,None,212644,001,2023-09-13_12h39.17.901,orientation discrimination,2023.1.3,59.95725047597206,
203,0,203,0,343.413354099961,344.4135898000095,344.4135898000095,-4,down,1,0.2335680000251159,None,212644,001,2023-09-13_12h39.17.901,orientation discrimination,2023.1.3,59.95725047597206,
204,0,204,0,344.66326860000845,345.66301579994615,345.66301579994615,4,up,0,0.2862787999911234,None,212644,001,2023-09-13_12h39.17.901,orientation discrimination,2023.1.3,59.95725047597206,
205,0,205,0,345.9797919000266,346.98010799998883,346.98010799998883,0,up,1,0.07701439992524683,None,212644,001,2023-09-13_12h39.17.901,orientation discrimination,2023.1.3,59.95725047597206,
206,0,206,0,347.07994600001257,348.0800773999654,348.0800773999654,0,up,1,0.164377799956128,None,212644,001,2023-09-13_12h39.17.901,orientation discrimination,2023.1.3,59.95725047597206,
207,0,207,0,348.2631067999173,349.26328359998297,349.26328359998297,2,down,1,0.5722150999354199,None,212644,001,2023-09-13_12h39.17.901,orientation discrimination,2023.1.3,59.95725047597206,
208,0,208,0,349.8631821000017,350.86354579997715,350.86354579997715,0,down,0,0.033464199979789555,None,212644,001,2023-09-13_12h39.17.901,orientation discrimination,2023.1.3,59.95725047597206,
209,0,209,0,350.91349499998614,351.91331879992504,351.91331879992504,-3,down,1,0.3721347999526188,None,212644,001,2023-09-13_12h39.17.901,orientation discrimination,2023.1.3,59.95725047597206,
210,0,210,0,352.31294570001774,353.31357609992847,353.31357609992847,0,down,0,0.06747200002428144,None,212644,001,2023-09-13_12h39.17.901,orientation discrimination,2023.1.3,59.95725047597206,
211,0,211,0,353.41325949993916,354.4132285999367,354.4132285999367,3,down,1,0.018317700014449656,None,212644,001,2023-09-13_12h39.17.901,orientation discrimination,2023.1.3,59.95725047597206,
212,0,212,0,354.4633872000268,355.4635295999469,355.4635295999469,4,up,0,0.16408679995220155,None,212644,001,2023-09-13_12h39.17.901,orientation discrimination,2023.1.3,59.95725047597206,
213,0,213,0,355.6465365999611,356.64661049994174,356.64661049994174,3,up,0,0.023167000035755336,None,212644,001,2023-09-13_12h39.17.901,orientation discrimination,2023.1.3,59.95725047597206,
214,0,214,0,356.69658430002164,357.6964925000211,357.6964925000211,-3,up,0,0.2908813999965787,None,212644,001,2023-09-13_12h39.17.901,orientation discrimination,2023.1.3,59.95725047597206,
215,0,215,0,358.0131721999496,359.01346659997944,359.01346659997944,0,up,1,0.0740918000228703,None,212644,001,2023-09-13_12h39.17.901,orientation discrimination,2023.1.3,59.95725047597206,
216,0,216,0,359.1131526000099,360.1134620999219,360.1134620999219,4,down,1,0.23138470004778355,None,212644,001,2023-09-13_12h39.17.901,orientation discrimination,2023.1.3,59.95725047597206,
217,0,217,0,360.362969800015,361.3632442000089,361.3632442000089,-1,down,1,0.12651530001312494,None,212644,001,2023-09-13_12h39.17.901,orientation discrimination,2023.1.3,59.95725047597206,
218,0,218,0,361.51315839996096,362.5133313999977,362.5133313999977,0,down,0,0.13617459998931736,None,212644,001,2023-09-13_12h39.17.901,orientation discrimination,2023.1.3,59.95725047597206,
219,0,219,0,362.6798527999781,363.68008760001976,363.68008760001976,0,up,1,0.45479420002084225,None,212644,001,2023-09-13_12h39.17.901,orientation discrimination,2023.1.3,59.95725047597206,
220,0,220,0,364.1630590999266,365.1634692000225,365.1634692000225,1,up,0,0.23787870001979172,None,212644,001,2023-09-13_12h39.17.901,orientation discrimination,2023.1.3,59.95725047597206,
221,0,221,0,365.4298432000214,366.43014039995614,366.43014039995614,0,up,1,0.03702250006608665,None,212644,001,2023-09-13_12h39.17.901,orientation discrimination,2023.1.3,59.95725047597206,
222,0,222,0,366.4964857000159,367.49693010002375,367.49693010002375,0,up,1,0.24142970005050302,None,212644,001,2023-09-13_12h39.17.901,orientation discrimination,2023.1.3,59.95725047597206,
223,0,223,0,367.7630984999705,368.7632138999179,368.7632138999179,0,up,1,0.2184160000178963,None,212644,001,2023-09-13_12h39.17.901,orientation discrimination,2023.1.3,59.95725047597206,
224,0,224,0,369.0132100000046,370.0133669999195,370.0133669999195,-2,up,0,0.17967509990558028,None,212644,001,2023-09-13_12h39.17.901,orientation discrimination,2023.1.3,59.95725047597206,
225,0,225,0,370.2130871999543,371.2132299999939,371.2132299999939,0,up,1,0.2042352999560535,None,212644,001,2023-09-13_12h39.17.901,orientation discrimination,2023.1.3,59.95725047597206,
226,0,226,0,371.4466402999824,372.44683759997133,372.44683759997133,0,up,1,0.17989999998826534,None,212644,001,2023-09-13_12h39.17.901,orientation discrimination,2023.1.3,59.95725047597206,
227,0,227,0,372.6465265000006,373.6466515000211,373.6466515000211,-4,up,0,0.1966795000480488,None,212644,001,2023-09-13_12h39.17.901,orientation discrimination,2023.1.3,59.95725047597206,
228,0,228,0,373.8628787000198,374.86334269994404,374.86334269994404,-2,down,1,0.23001930001191795,None,212644,001,2023-09-13_12h39.17.901,orientation discrimination,2023.1.3,59.95725047597206,
229,0,229,0,375.1131484999787,376.1133262999356,376.1133262999356,0,down,0,0.2273520000744611,None,212644,001,2023-09-13_12h39.17.901,orientation discrimination,2023.1.3,59.95725047597206,
230,0,230,0,376.3630911000073,377.3633419999387,377.3633419999387,-1,down,1,0.17274309997446835,None,212644,001,2023-09-13_12h39.17.901,orientation discrimination,2023.1.3,59.95725047597206,
231,0,231,0,377.56301389995497,378.56449030002113,378.56449030002113,0,up,1,0.1052606999874115,None,212644,001,2023-09-13_12h39.17.901,orientation discrimination,2023.1.3,59.95725047597206,
232,0,232,0,378.6963794999756,379.69655659992713,379.69655659992713,2,down,1,0.08572849992197007,None,212644,001,2023-09-13_12h39.17.901,orientation discrimination,2023.1.3,59.95725047597206,
233,0,233,0,379.81311769993044,380.813389500021,380.813389500021,0,up,1,0.21675610006786883,None,212644,001,2023-09-13_12h39.17.901,orientation discrimination,2023.1.3,59.95725047597206,
234,0,234,0,381.04641489998903,382.0468524999451,382.0468524999451,0,up,1,0.024734799982979894,None,212644,001,2023-09-13_12h39.17.901,orientation discrimination,2023.1.3,59.95725047597206,
235,0,235,0,382.0965792000061,383.09672989998944,383.09672989998944,-5,up,0,0.05407249997369945,None,212644,001,2023-09-13_12h39.17.901,orientation discrimination,2023.1.3,59.95725047597206,
236,0,236,0,383.1798550999956,384.18010669993237,384.18010669993237,-2,up,0,0.057239699992351234,None,212644,001,2023-09-13_12h39.17.901,orientation discrimination,2023.1.3,59.95725047597206,
237,0,237,0,384.2631289999699,385.26331760000903,385.26331760000903,-2,down,1,0.0030120000010356307,None,212644,001,2023-09-13_12h39.17.901,orientation discrimination,2023.1.3,59.95725047597206,
238,0,238,0,385.29646189999767,386.2968611000106,386.2968611000106,-3,up,0,0.29981550003867596,None,212644,001,2023-09-13_12h39.17.901,orientation discrimination,2023.1.3,59.95725047597206,
239,0,239,0,386.61321590002626,387.6133351000026,387.6133351000026,0,up,1,0.22684819996356964,None,212644,001,2023-09-13_12h39.17.901,orientation discrimination,2023.1.3,59.95725047597206,
240,0,240,0,387.86314859997947,388.8634007999208,388.8634007999208,-3,up,0,0.05989510007202625,None,212644,001,2023-09-13_12h39.17.901,orientation discrimination,2023.1.3,59.95725047597206,
241,0,241,0,388.9467529000249,389.946677000029,389.946677000029,-5,up,0,0.22064459999091923,None,212644,001,2023-09-13_12h39.17.901,orientation discrimination,2023.1.3,59.95725047597206,
242,0,242,0,390.19661380001344,391.19663519994356,391.19663519994356,4,up,0,0.269939300022088,None,212644,001,2023-09-13_12h39.17.901,orientation discrimination,2023.1.3,59.95725047597206,
243,0,243,0,391.49659300001804,392.49665380001534,392.49665380001534,3,down,1,0.5328909000381827,None,212644,001,2023-09-13_12h39.17.901,orientation discrimination,2023.1.3,59.95725047597206,
244,0,244,0,393.04666579992045,394.04677369992714,394.04677369992714,3,down,1,0.296550799976103,None,212644,001,2023-09-13_12h39.17.901,orientation discrimination,2023.1.3,59.95725047597206,
245,0,245,0,394.3631008999655,395.36334009992424,395.36334009992424,4,down,1,0.5428201999748126,None,212644,001,2023-09-13_12h39.17.901,orientation discrimination,2023.1.3,59.95725047597206,
246,0,246,0,395.92992329993285,396.929972599959,396.929972599959,1,up,0,0.10203860001638532,None,212644,001,2023-09-13_12h39.17.901,orientation discrimination,2023.1.3,59.95725047597206,
247,0,247,0,397.063141599996,398.0632927999832,398.0632927999832,4,up,0,0.28502060007303953,None,212644,001,2023-09-13_12h39.17.901,orientation discrimination,2023.1.3,59.95725047597206,
248,0,248,0,398.3797707000049,399.3802165000234,399.3802165000234,0,up,1,0.20542010001372546,None,212644,001,2023-09-13_12h39.17.901,orientation discrimination,2023.1.3,59.95725047597206,
249,0,249,0,399.6131532000145,400.6135125999572,400.6135125999572,-2,up,0,0.173120699939318,None,212644,001,2023-09-13_12h39.17.901,orientation discrimination,2023.1.3,59.95725047597206,
250,0,250,0,400.8131175999297,401.81321259995457,401.81321259995457,-2,up,0,0.002674699993804097,None,212644,001,2023-09-13_12h39.17.901,orientation discrimination,2023.1.3,59.95725047597206,
251,0,251,0,401.84640829998534,402.84663619997445,402.84663619997445,0,down,0,0.14502029994037002,None,212644,001,2023-09-13_12h39.17.901,orientation discrimination,2023.1.3,59.95725047597206,
252,0,252,0,403.0133292999817,404.0132989999838,404.0132989999838,2,up,0,0.283604700001888,None,212644,001,2023-09-13_12h39.17.901,orientation discrimination,2023.1.3,59.95725047597206,
253,0,253,0,404.3129865999799,405.313260099967,405.313260099967,0,up,1,0.07443519996013492,None,212644,001,2023-09-13_12h39.17.901,orientation discrimination,2023.1.3,59.95725047597206,
254,0,254,0,405.4129992999369,406.4132513999939,406.4132513999939,0,up,1,0.27006580005399883,None,212644,001,2023-09-13_12h39.17.901,orientation discrimination,2023.1.3,59.95725047597206,
255,0,255,0,406.71336399996653,407.7136082999641,407.7136082999641,0,up,1,0.1352261999854818,None,212644,001,2023-09-13_12h39.17.901,orientation discrimination,2023.1.3,59.95725047597206,
256,0,256,0,407.8798922999995,408.88004219997674,408.88004219997674,-4,up,0,0.122069799923338,None,212644,001,2023-09-13_12h39.17.901,orientation discrimination,2023.1.3,59.95725047597206,
257,0,257,0,409.0298388999654,410.02981909993105,410.02981909993105,0,up,1,0.17723789997398853,None,212644,001,2023-09-13_12h39.17.901,orientation discrimination,2023.1.3,59.95725047597206,
258,0,258,0,410.22998299996834,411.2300681999186,411.2300681999186,-1,up,0,0.18492819997482002,None,212644,001,2023-09-13_12h39.17.901,orientation discrimination,2023.1.3,59.95725047597206,
259,0,259,0,411.44659119995777,412.4466747000115,412.4466747000115,0,up,1,0.5204508000751957,None,212644,001,2023-09-13_12h39.17.901,orientation discrimination,2023.1.3,59.95725047597206,
260,0,260,0,412.99642989994027,413.99642640003003,413.99642640003003,0,up,1,0.19964150001760572,None,212644,001,2023-09-13_12h39.17.901,orientation discrimination,2023.1.3,59.95725047597206,
261,0,261,0,414.2130330000073,415.2132550999522,415.2132550999522,0,down,0,0.4523469000123441,None,212644,001,2023-09-13_12h39.17.901,orientation discrimination,2023.1.3,59.95725047597206,
262,0,262,0,415.69650409999304,416.6965610999614,416.6965610999614,0,up,1,0.2360066999681294,None,212644,001,2023-09-13_12h39.17.901,orientation discrimination,2023.1.3,59.95725047597206,
263,0,263,0,416.96330890001263,417.96333759999834,417.96333759999834,0,up,1,0.056721100001595914,None,212644,001,2023-09-13_12h39.17.901,orientation discrimination,2023.1.3,59.95725047597206,
264,0,264,0,418.0462884999579,419.04662989999633,419.04662989999633,4,up,0,0.13729670003522187,None,212644,001,2023-09-13_12h39.17.901,orientation discrimination,2023.1.3,59.95725047597206,
265,0,265,0,419.21298880001996,420.21324810001533,420.21324810001533,0,up,1,0.29962399997748435,None,212644,001,2023-09-13_12h39.17.901,orientation discrimination,2023.1.3,59.95725047597206,
266,0,266,0,420.5300642999355,421.530071199988,421.530071199988,0,up,1,0.22497540002223104,None,212644,001,2023-09-13_12h39.17.901,orientation discrimination,2023.1.3,59.95725047597206,
267,0,267,0,421.7799004999688,422.7798706999747,422.7798706999747,0,up,1,0.24379269999917597,None,212644,001,2023-09-13_12h39.17.901,orientation discrimination,2023.1.3,59.95725047597206,
268,0,268,0,423.0463950999547,424.04684640001506,424.04684640001506,2,up,0,0.04335750010795891,None,212644,001,2023-09-13_12h39.17.901,orientation discrimination,2023.1.3,59.95725047597206,
269,0,269,0,424.1129766999511,425.11323949997313,425.11323949997313,0,up,1,0.143523299950175,None,212644,001,2023-09-13_12h39.17.901,orientation discrimination,2023.1.3,59.95725047597206,
270,0,270,0,425.2797370000044,426.2798584999982,426.2798584999982,-5,up,0,0.023423100006766617,None,212644,001,2023-09-13_12h39.17.901,orientation discrimination,2023.1.3,59.95725047597206,
271,0,271,0,426.329809900024,427.3302027999889,427.3302027999889,-4,up,0,0.2377558998996392,None,212644,001,2023-09-13_12h39.17.901,orientation discrimination,2023.1.3,59.95725047597206,
272,0,272,0,427.59645299997646,428.59656330000143,428.59656330000143,0,up,1,0.6480712000047788,None,212644,001,2023-09-13_12h39.17.901,orientation discrimination,2023.1.3,59.95725047597206,
273,0,273,0,429.2629558999324,430.26324150001165,430.26324150001165,3,up,0,1.145620199968107,None,212644,001,2023-09-13_12h39.17.901,orientation discrimination,2023.1.3,59.95725047597206,
274,0,274,0,431.42973859992344,432.4298907999182,432.4298907999182,0,up,1,0.01927839999552816,None,212644,001,2023-09-13_12h39.17.901,orientation discrimination,2023.1.3,59.95725047597206,
275,0,275,0,432.47985000000335,433.48011439992115,433.48011439992115,0,up,1,0.14531770010944456,None,212644,001,2023-09-13_12h39.17.901,orientation discrimination,2023.1.3,59.95725047597206,
276,0,276,0,433.64642889995594,434.6466182000004,434.6466182000004,0,up,1,0.2897715999279171,None,212644,001,2023-09-13_12h39.17.901,orientation discrimination,2023.1.3,59.95725047597206,
277,0,277,0,434.963245299994,435.963180199964,435.963180199964,-1,down,1,0.21691429999191314,None,212644,001,2023-09-13_12h39.17.901,orientation discrimination,2023.1.3,59.95725047597206,
278,0,278,0,436.1965810999973,437.1966190999374,437.1966190999374,3,up,0,0.26504860003478825,None,212644,001,2023-09-13_12h39.17.901,orientation discrimination,2023.1.3,59.95725047597206,
279,0,279,0,437.47975399997085,438.47998559998814,438.47998559998814,0,up,1,0.22220139997079968,None,212644,001,2023-09-13_12h39.17.901,orientation discrimination,2023.1.3,59.95725047597206,
280,0,280,0,438.7300588999642,439.7300779999932,439.7300779999932,0,up,1,0.30735869996715337,None,212644,001,2023-09-13_12h39.17.901,orientation discrimination,2023.1.3,59.95725047597206,
281,0,281,0,440.06313629995566,441.06324009993114,441.06324009993114,3,down,1,0.05624940001871437,None,212644,001,2023-09-13_12h39.17.901,orientation discrimination,2023.1.3,59.95725047597206,
282,0,282,0,441.14641769998707,442.1466950000031,442.1466950000031,-4,down,1,0.356020399951376,None,212644,001,2023-09-13_12h39.17.901,orientation discrimination,2023.1.3,59.95725047597206,
283,0,283,0,442.5297272999305,443.52998989995103,443.52998989995103,0,up,1,6.7678360000718385,None,212644,001,2023-09-13_12h39.17.901,orientation discrimination,2023.1.3,59.95725047597206,
284,0,284,0,450.3298187999753,451.32997369999066,451.32997369999066,0,up,1,0.11426449997816235,None,212644,001,2023-09-13_12h39.17.901,orientation discrimination,2023.1.3,59.95725047597206,
285,0,285,0,451.4631785999518,452.46338209998794,452.46338209998794,0,up,1,2.208165399963036,None,212644,001,2023-09-13_12h39.17.901,orientation discrimination,2023.1.3,59.95725047597206,
286,0,286,0,454.6963236000156,455.6968447000254,455.6968447000254,0,up,1,3.621579200029373,None,212644,001,2023-09-13_12h39.17.901,orientation discrimination,2023.1.3,59.95725047597206,
287,0,287,0,459.3465245999396,460.3466631999472,460.3466631999472,-1,up,0,0.007668200065381825,None,212644,001,2023-09-13_12h39.17.901,orientation discrimination,2023.1.3,59.95725047597206,
288,0,288,0,460.37992370000575,461.38015109999105,461.38015109999105,0,down,1,0.043618699884973466,None,212644,001,2023-09-13_12h39.17.901,orientation discrimination,2023.1.3,59.95725047597206,
289,0,289,0,461.44651229993906,462.4466397999786,462.4466397999786,0,up,1,0.017855599988251925,None,212644,001,2023-09-13_12h39.17.901,orientation discrimination,2023.1.3,59.95725047597206,
290,0,290,0,462.49642839992885,463.4965634000255,463.4965634000255,0,down,0,0.22848639998119324,None,212644,001,2023-09-13_12h39.17.901,orientation discrimination,2023.1.3,59.95725047597206,
291,0,291,0,463.7463452999946,464.74660279997624,464.74660279997624,3,down,1,0.0681951999431476,None,212644,001,2023-09-13_12h39.17.901,orientation discrimination,2023.1.3,59.95725047597206,
292,0,292,0,464.8466100000078,465.8466352999676,465.8466352999676,1,down,1,0.15440279990434647,None,212644,001,2023-09-13_12h39.17.901,orientation discrimination,2023.1.3,59.95725047597206,
293,0,293,0,466.02983020001557,467.030006499961,467.030006499961,-2,down,1,0.15159189992118627,None,212644,001,2023-09-13_12h39.17.901,orientation discrimination,2023.1.3,59.95725047597206,
294,0,294,0,467.21295650000684,468.21314250002615,468.21314250002615,0,down,0,0.35020350001286715,None,212644,001,2023-09-13_12h39.17.901,orientation discrimination,2023.1.3,59.95725047597206,
295,0,295,0,468.5797209999291,469.57995980000123,469.57995980000123,0,up,1,0.16289440006949008,None,212644,001,2023-09-13_12h39.17.901,orientation discrimination,2023.1.3,59.95725047597206,
296,0,296,0,469.76311599998735,470.7632027999498,470.7632027999498,0,up,1,0.23822940001264215,None,212644,001,2023-09-13_12h39.17.901,orientation discrimination,2023.1.3,59.95725047597206,
297,0,297,0,471.0297723999247,472.03011669998523,472.03011669998523,0,up,1,0.05234649998601526,None,212644,001,2023-09-13_12h39.17.901,orientation discrimination,2023.1.3,59.95725047597206,
298,0,298,0,472.11301999993157,473.1130879999837,473.1130879999837,0,up,1,0.050671599921770394,None,212644,001,2023-09-13_12h39.17.901,orientation discrimination,2023.1.3,59.95725047597206,
299,0,299,0,473.1964978999458,474.1965208000038,474.1965208000038,0,up,1,0.20699930004775524,None,212644,001,2023-09-13_12h39.17.901,orientation discrimination,2023.1.3,59.95725047597206,
